Folder: dt2Conv/data/Sirion

Note: README.md
# dt2Conv
Jython Convenience Functions for DTSA-II

File: 7kV-S5-5mm-100sec-coated-end-1.msa
#FORMAT      : EMSA/MAS Spectral Data File
#VERSION     : 1.0
#TITLE       : 7kV-S5-5mm-100sec-coated-end-1
#DATE        : 01-JUN-2017
#TIME        : 14:24
#OWNER       : John Minter
#NPOINTS     : 2048.0
#NCOLUMNS    : 1.0
#XUNITS      : keV
#YUNITS      : counts
#DATATYPE    : XY
#XPERCHAN    : 0.005
#OFFSET      : -0.1
#SIGNALTYPE  : EDS
#CHOFFSET    : 20.0
#LIVETIME    : 100.0
#REALTIME    : 110.345
#BEAMKV      : 7.0
#PROBECUR    : 2.288
#MAGCAM      : 100000.0
#XTILTSTGE   : 0.0
#AZIMANGLE   : 0.0
#ELEVANGLE   : 35.0
#XPOSITION mm: -4.5840
#YPOSITION mm: 2.5710
#ZPOSITION mm: 5.0040
##OXINSTPT   : 4
##OXINSTSTROB: 47.98
##OXINSTELEMS: 6,14
##OXINSTLABEL: 6, 0.277, C
##OXINSTLABEL: 14, 1.740, Si
#SPECTRUM    : Spectral Data Starts Here
-0.10000, 0.0
-0.06500, 2.0
-0.03000, 223.0
0.00500, 1520.0
0.04000, 2389.0
0.07500, 1775.0
0.11000, 1960.0
0.14500, 333.0
0.18000, 150.0
0.21500, 246.0
0.25000, 820.0
0.28500, 1146.0
0.32000, 346.0
0.35500, 239.0
0.39000, 331.0
0.42500, 409.0
0.46000, 527.0
0.49500, 700.0
0.53000, 800.0
0.56500, 603.0
0.60000, 621.0
0.63500, 674.0
0.67000, 755.0
0.70500, 756.0
0.74000, 801.0
0.77500, 800.0
0.81000, 805.0
0.84500, 802.0
0.88000, 788.0
0.91500, 834.0
0.95000, 794.0
0.98500, 733.0
1.02000, 752.0
1.05500, 734.0
1.09000, 792.0
1.12500, 704.0
1.16000, 676.0
1.19500, 660.0
1.23000, 684.0
1.26500, 658.0
1.30000, 626.0
1.33500, 652.0
1.37000, 614.0
1.40500, 656.0
1.44000, 657.0
1.47500, 670.0
1.51000, 732.0
1.54500, 689.0
1.58000, 713.0
1.61500, 725.0
1.65000, 1954.0
1.68500, 12876.0
1.72000, 41498.0
1.75500, 47794.0
1.79000, 21101.0
1.82500, 5416.0
1.86000, 2279.0
1.89500, 941.0
1.93000, 387.0
1.96500, 296.0
2.00000, 282.0
2.03500, 274.0
2.07000, 272.0
2.10500, 262.0
2.14000, 272.0
2.17500, 260.0
2.21000, 228.0
2.24500, 262.0
2.28000, 249.0
2.31500, 227.0
2.35000, 237.0
2.38500, 239.0
2.42000, 238.0
2.45500, 241.0
2.49000, 219.0
2.52500, 232.0
2.56000, 219.0
2.59500, 232.0
2.63000, 192.0
2.66500, 226.0
2.70000, 204.0
2.73500, 210.0
2.77000, 207.0
2.80500, 182.0
2.84000, 182.0
2.87500, 205.0
2.91000, 181.0
2.94500, 185.0
2.98000, 192.0
3.01500, 164.0
3.05000, 157.0
3.08500, 177.0
3.12000, 162.0
3.15500, 167.0
3.19000, 157.0
3.22500, 145.0
3.26000, 161.0
3.29500, 123.0
3.33000, 178.0
3.36500, 157.0
3.40000, 158.0
3.43500, 209.0
3.47000, 272.0
3.50500, 267.0
3.54000, 206.0
3.57500, 171.0
3.61000, 156.0
3.64500, 119.0
3.68000, 118.0
3.71500, 126.0
3.75000, 116.0
3.78500, 107.0
3.82000, 115.0
3.85500, 100.0
3.89000, 115.0
3.92500, 120.0
3.96000, 96.0
3.99500, 101.0
4.03000, 103.0
4.06500, 104.0
4.10000, 80.0
4.13500, 97.0
4.17000, 94.0
4.20500, 87.0
4.24000, 88.0
4.27500, 86.0
4.31000, 93.0
4.34500, 84.0
4.38000, 90.0
4.41500, 72.0
4.45000, 76.0
4.48500, 72.0
4.52000, 83.0
4.55500, 63.0
4.59000, 60.0
4.62500, 69.0
4.66000, 61.0
4.69500, 65.0
4.73000, 58.0
4.76500, 58.0
4.80000, 66.0
4.83500, 66.0
4.87000, 64.0
4.90500, 46.0
4.94000, 43.0
4.97500, 55.0
5.01000, 47.0
5.04500, 58.0
5.08000, 50.0
5.11500, 51.0
5.15000, 44.0
5.18500, 53.0
5.22000, 50.0
5.25500, 58.0
5.29000, 35.0
5.32500, 49.0
5.36000, 34.0
5.39500, 40.0
5.43000, 36.0
5.46500, 46.0
5.50000, 37.0
5.53500, 34.0
5.57000, 24.0
5.60500, 33.0
5.64000, 33.0
5.67500, 38.0
5.71000, 31.0
5.74500, 37.0
5.78000, 20.0
5.81500, 26.0
5.85000, 20.0
5.88500, 17.0
5.92000, 20.0
5.95500, 22.0
5.99000, 24.0
6.02500, 20.0
6.06000, 17.0
6.09500, 18.0
6.13000, 21.0
6.16500, 24.0
6.20000, 21.0
6.23500, 14.0
6.27000, 21.0
6.30500, 9.0
6.34000, 13.0
6.37500, 12.0
6.41000, 10.0
6.44500, 11.0
6.48000, 10.0
6.51500, 16.0
6.55000, 9.0
6.58500, 10.0
6.62000, 7.0
6.65500, 10.0
6.69000, 6.0
6.72500, 11.0
6.76000, 9.0
6.79500, 7.0
6.83000, 5.0
6.86500, 3.0
6.90000, 5.0
6.93500, 4.0
6.97000, 5.0
7.00500, 1.0
7.04000, 2.0
7.07500, 0.0
7.11000, 2.0
7.14500, 0.0
7.18000, 0.0
7.21500, 0.0
7.25000, 0.0
7.28500, 2.0
7.32000, 0.0
7.35500, 1.0
7.39000, 0.0
7.42500, 0.0
7.46000, 1.0
7.49500, 1.0
7.53000, 0.0
7.56500, 0.0
7.60000, 0.0
7.63500, 1.0
7.67000, 0.0
7.70500, 1.0
7.74000, 0.0
7.77500, 0.0
7.81000, 0.0
7.84500, 0.0
7.88000, 0.0
7.91500, 0.0
7.95000, 0.0
7.98500, 0.0
8.02000, 0.0
8.05500, 0.0
8.09000, 0.0
8.12500, 1.0
8.16000, 0.0
8.19500, 0.0
8.23000, 1.0
8.26500, 0.0
8.30000, 0.0
8.33500, 0.0
8.37000, 0.0
8.40500, 0.0
8.44000, 0.0
8.47500, 0.0
8.51000, 0.0
8.54500, 0.0
8.58000, 0.0
8.61500, 0.0
8.65000, 0.0
8.68500, 0.0
8.72000, 0.0
8.75500, 0.0
8.79000, 0.0
8.82500, 0.0
8.86000, 0.0
8.89500, 0.0
8.93000, 0.0
8.96500, 0.0
9.00000, 0.0
9.03500, 0.0
9.07000, 0.0
9.10500, 1.0
9.14000, 0.0
9.17500, 0.0
9.21000, 0.0
9.24500, 0.0
9.28000, 0.0
9.31500, 0.0
9.35000, 0.0
9.38500, 0.0
9.42000, 0.0
9.45500, 0.0
9.49000, 0.0
9.52500, 0.0
9.56000, 0.0
9.59500, 0.0
9.63000, 0.0
9.66500, 0.0
9.70000, 0.0
9.73500, 0.0
9.77000, 0.0
9.80500, 0.0
9.84000, 0.0
9.87500, 0.0
9.91000, 0.0
9.94500, 0.0
9.98000, 0.0
10.01500, 0.0
10.05000, 0.0
10.08500, 0.0
10.12000, 1.0
10.13500, 0.0
#ENDOFDATA   :

File: C-std-7kV.msa
#FORMAT      : EMSA/MAS Spectral Data File
#VERSION     : 1.0
#TITLE       : C-7kV-std
#DATE        : 01-Jun-2017
#TIME        : 07:00
#OWNER       : John Minter
#NPOINTS     : 2048
#NCOLUMNS    : 1
#XUNITS      : eV
#YUNITS      : counts
#DATATYPE    : Y
#XPERCHAN    : 5.00333
#OFFSET      : -103.613
#BEAMKV      : 7
#PROBECUR    : 2.288
#SIGNALTYPE  : EDS
#ELEVANGLE   : 35
#AZIMANGLE   : 225
#LIVETIME    : 300
#REALTIME    : 338.08
#TAUWIND     : 0
#TDEADLYR    : 0
#TACTLYR     : 0.045
#TALWIND     : 0.003
#CHOFFSET    : 0.0
#XLABEL      : Energy (eV)
#YLABEL      : Counts
#EDSDET      : SDUTW
##SPECIMEN   : C-7kV-std
##D2STDCMP   : C,(C:100.0),2.1
##DET_HASH   : beb453cd-0419-e61a-0579-19c0f29e56e8
##CALIB_HASH : 437bace4-1a7e-9a72-d2b5-cbfa7f4a1c79
##SAMPLE     : <BulkSample id="1">\n<mOrientation id="2">\n<double>0.0</double>\n<double>0.0</double>\n<double>-1.0</double>\n</mOrientation>\n</BulkSample>
#SPECTRUM    :
0,
4,
696,
4755,
7092,
3407,
2152,
2259,
3367,
16916,
141450,
231220,
49273,
1592,
437,
463.918,
517.154,
570.389,
623.625,
676.86,
730.096,
783.331,
825,
907,
941,
1006,
1002,
988,
975,
1029,
999.454,
987.5727,
975.691,
963.81,
987,
942,
916,
893,
870,
831,
818,
779,
771,
711,
724,
687,
694,
654,
607,
559,
577,
582,
592,
538,
546,
536,
473,
446,
423,
435,
423,
394,
386,
379,
389,
386,
357,
358,
379,
366,
362,
296,
295,
302,
306,
295,
284,
281,
269,
271,
278,
236,
219,
223,
225,
210,
208,
206,
201,
198,
211,
188,
192,
201,
173,
183,
177,
171,
171,
157,
164,
161,
149,
151,
135,
145,
160,
131,
153,
125,
120,
128,
107,
115,
104,
123,
105,
108,
106,
92,
98,
91,
105,
87,
81,
85,
92,
78,
78,
82,
68,
63,
61,
73,
63,
77,
64,
54,
60,
54,
62,
61,
66,
51,
46,
45,
50,
42,
47,
47,
41,
40,
47,
44,
42,
33,
43,
28,
31,
40,
32,
36,
32,
32,
36,
27,
24,
26,
27,
28,
28,
16,
28,
23,
24,
21,
19,
17,
18,
14,
16,
19,
11,
15,
11,
10,
9,
8,
15,
9,
9,
5,
9,
6,
6,
9,
3,
6,
2,
1,
0,
2,
2,
4,
2,
0,
1,
0,
0,
0,
0,
0,
0,
0,
0,
0,
0,
0,
0,
0,
0,
0,
0,
0,
0,
0,
0,
0,
0,
0,
0,
1,
0,
0,
0,
0,
0,
0,
0,
0,
0,
0,
0,
0,
0,
0,
0,
0,
0,
0,
0,
0,
0,
0,
0,
0,
0,
0,
0,
0,
0,
0,
0,
0,
0,
0,
0,
0,
0,
0,
0,
0,
0,
0,
0,
0,
0,
0,
0,
0,
0,
0,
0,
0,
0,
0,
0,
0,
0,
0,
0,
0,
0,
0,
#ENDOFDATA   :

File: Cu-2017-12-14-5eV-ch-2K.msa
#FORMAT      : EMSA/MAS Spectral Data File
#VERSION     : 1.0
#TITLE       : Cu-2017-12-14-5eV-ch-2K
#DATE        : 14-DEC-2017
#TIME        : 14:12
#OWNER       : John Minter
#NPOINTS     : 2048.0
#NCOLUMNS    : 1.0
#XUNITS      : keV
#YUNITS      : counts
#DATATYPE    : XY
#XPERCHAN    : 0.005
#OFFSET      : -0.1
#SIGNALTYPE  : EDS
#CHOFFSET    : 20.0
#LIVETIME    : 100.0
#REALTIME    : 128.559
#BEAMKV      : 20.0
#PROBECUR    : 1.83
#MAGCAM      : 8000.0
#XTILTSTGE   : 0.0
#AZIMANGLE   : 0.0
#ELEVANGLE   : 35.0
#XPOSITION mm: 0.9090
#YPOSITION mm: 0.0860
#ZPOSITION mm: 4.9970
##OXINSTPT   : 4
##OXINSTSTROB: 48.28
##OXINSTELEMS: 29,6,8,13
##OXINSTLABEL: 29, 8.048, Cu
##OXINSTLABEL: 29, 8.905, Cu
##OXINSTLABEL: 29, 0.930, Cu
##OXINSTLABEL: 29, 0.832, Cu
##OXINSTLABEL: 29, 0.811, Cu
##OXINSTLABEL: 6, 0.277, C
##OXINSTLABEL: 8, 0.525, O
##OXINSTLABEL: 13, 1.487, Al
#SPECTRUM    : Spectral Data Starts Here
-0.10000, 0.0
-0.06500, 4.0
-0.03000, 241.0
0.00500, 1672.0
0.04000, 2847.0
0.07500, 861.0
0.11000, 264.0
0.14500, 218.0
0.18000, 226.0
0.21500, 279.0
0.25000, 621.0
0.28500, 814.0
0.32000, 337.0
0.35500, 285.0
0.39000, 347.0
0.42500, 446.0
0.46000, 587.0
0.49500, 872.0
0.53000, 1072.0
0.56500, 809.0
0.60000, 844.0
0.63500, 998.0
0.67000, 1213.0
0.70500, 1400.0
0.74000, 1927.0
0.77500, 4650.0
0.81000, 9142.0
0.84500, 7903.0
0.88000, 19510.0
0.91500, 67964.0
0.95000, 67072.0
0.98500, 17411.0
1.02000, 1985.0
1.05500, 577.0
1.09000, 422.0
1.12500, 404.0
1.16000, 384.0
1.19500, 391.0
1.23000, 462.0
1.26500, 483.0
1.30000, 493.0
1.33500, 519.0
1.37000, 534.0
1.40500, 577.0
1.44000, 649.0
1.47500, 950.0
1.51000, 943.0
1.54500, 760.0
1.58000, 639.0
1.61500, 656.0
1.65000, 632.0
1.68500, 666.0
1.72000, 702.0
1.75500, 752.0
1.79000, 802.0
1.82500, 847.0
1.86000, 996.0
1.89500, 908.0
1.93000, 784.0
1.96500, 753.0
2.00000, 800.0
2.03500, 736.0
2.07000, 745.0
2.10500, 778.0
2.14000, 753.0
2.17500, 763.0
2.21000, 835.0
2.24500, 856.0
2.28000, 881.0
2.31500, 843.0
2.35000, 842.0
2.38500, 859.0
2.42000, 877.0
2.45500, 851.0
2.49000, 844.0
2.52500, 888.0
2.56000, 830.0
2.59500, 857.0
2.63000, 886.0
2.66500, 895.0
2.70000, 869.0
2.73500, 876.0
2.77000, 887.0
2.80500, 856.0
2.84000, 861.0
2.87500, 864.0
2.91000, 859.0
2.94500, 880.0
2.98000, 875.0
3.01500, 853.0
3.05000, 870.0
3.08500, 851.0
3.12000, 846.0
3.15500, 847.0
3.19000, 849.0
3.22500, 848.0
3.26000, 845.0
3.29500, 832.0
3.33000, 801.0
3.36500, 801.0
3.40000, 839.0
3.43500, 823.0
3.47000, 820.0
3.50500, 779.0
3.54000, 792.0
3.57500, 797.0
3.61000, 779.0
3.64500, 809.0
3.68000, 774.0
3.71500, 802.0
3.75000, 762.0
3.78500, 774.0
3.82000, 747.0
3.85500, 700.0
3.89000, 729.0
3.92500, 767.0
3.96000, 744.0
3.99500, 725.0
4.03000, 714.0
4.06500, 674.0
4.10000, 650.0
4.13500, 707.0
4.17000, 711.0
4.20500, 708.0
4.24000, 675.0
4.27500, 679.0
4.31000, 652.0
4.34500, 660.0
4.38000, 648.0
4.41500, 647.0
4.45000, 675.0
4.48500, 677.0
4.52000, 633.0
4.55500, 649.0
4.59000, 610.0
4.62500, 618.0
4.66000, 611.0
4.69500, 626.0
4.73000, 612.0
4.76500, 591.0
4.80000, 634.0
4.83500, 586.0
4.87000, 596.0
4.90500, 612.0
4.94000, 597.0
4.97500, 592.0
5.01000, 563.0
5.04500, 594.0
5.08000, 587.0
5.11500, 551.0
5.15000, 570.0
5.18500, 558.0
5.22000, 567.0
5.25500, 534.0
5.29000, 525.0
5.32500, 542.0
5.36000, 546.0
5.39500, 537.0
5.43000, 571.0
5.46500, 539.0
5.50000, 518.0
5.53500, 517.0
5.57000, 529.0
5.60500, 552.0
5.64000, 499.0
5.67500, 476.0
5.71000, 472.0
5.74500, 463.0
5.78000, 475.0
5.81500, 493.0
5.85000, 477.0
5.88500, 468.0
5.92000, 481.0
5.95500, 477.0
5.99000, 481.0
6.02500, 449.0
6.06000, 454.0
6.09500, 483.0
6.13000, 485.0
6.16500, 450.0
6.20000, 444.0
6.23500, 473.0
6.27000, 476.0
6.30500, 485.0
6.34000, 445.0
6.37500, 430.0
6.41000, 405.0
6.44500, 418.0
6.48000, 411.0
6.51500, 433.0
6.55000, 393.0
6.58500, 411.0
6.62000, 378.0
6.65500, 431.0
6.69000, 434.0
6.72500, 397.0
6.76000, 366.0
6.79500, 377.0
6.83000, 386.0
6.86500, 400.0
6.90000, 384.0
6.93500, 350.0
6.97000, 383.0
7.00500, 370.0
7.04000, 346.0
7.07500, 347.0
7.11000, 346.0
7.14500, 375.0
7.18000, 375.0
7.21500, 335.0
7.25000, 356.0
7.28500, 376.0
7.32000, 371.0
7.35500, 347.0
7.39000, 373.0
7.42500, 343.0
7.46000, 355.0
7.49500, 330.0
7.53000, 321.0
7.56500, 341.0
7.60000, 350.0
7.63500, 331.0
7.67000, 321.0
7.70500, 338.0
7.74000, 375.0
7.77500, 380.0
7.81000, 424.0
7.84500, 585.0
7.88000, 1243.0
7.91500, 3286.0
7.95000, 7652.0
7.98500, 14400.0
8.02000, 19559.0
8.05500, 19706.0
8.09000, 14886.0
8.12500, 8260.0
8.16000, 3465.0
8.19500, 1258.0
8.23000, 528.0
8.26500, 373.0
8.30000, 309.0
8.33500, 353.0
8.37000, 296.0
8.40500, 311.0
8.44000, 277.0
8.47500, 310.0
8.51000, 288.0
8.54500, 300.0
8.58000, 281.0
8.61500, 321.0
8.65000, 329.0
8.68500, 353.0
8.72000, 385.0
8.75500, 595.0
8.79000, 985.0
8.82500, 1687.0
8.86000, 2480.0
8.89500, 2977.0
8.93000, 2763.0
8.96500, 2047.0
9.00000, 1248.0
9.03500, 669.0
9.07000, 426.0
9.10500, 257.0
9.14000, 219.0
9.17500, 214.0
9.21000, 206.0
9.24500, 188.0
9.28000, 197.0
9.31500, 214.0
9.35000, 207.0
9.38500, 196.0
9.42000, 205.0
9.45500, 207.0
9.49000, 208.0
9.52500, 205.0
9.56000, 208.0
9.59500, 209.0
9.63000, 198.0
9.66500, 189.0
9.70000, 217.0
9.73500, 202.0
9.77000, 207.0
9.80500, 218.0
9.84000, 223.0
9.87500, 206.0
9.91000, 190.0
9.94500, 203.0
9.98000, 192.0
10.01500, 184.0
10.05000, 180.0
10.08500, 193.0
10.12000, 200.0
10.13500, 180.0
#ENDOFDATA   :

File: Cu-2017-12-14-5eV-ch-4K.msa
#FORMAT      : EMSA/MAS Spectral Data File
#VERSION     : 1.0
#TITLE       : Cu-2017-12-14-5eV-ch-4K
#DATE        : 14-DEC-2017
#TIME        : 14:15
#OWNER       : John Minter
#NPOINTS     : 4096.0
#NCOLUMNS    : 1.0
#XUNITS      : keV
#YUNITS      : counts
#DATATYPE    : XY
#XPERCHAN    : 0.005
#OFFSET      : -0.2
#SIGNALTYPE  : EDS
#CHOFFSET    : 40.0
#LIVETIME    : 100.0
#REALTIME    : 128.68
#BEAMKV      : 20.0
#PROBECUR    : 1.83
#MAGCAM      : 8000.0
#XTILTSTGE   : 0.0
#AZIMANGLE   : 0.0
#ELEVANGLE   : 35.0
#XPOSITION mm: 0.9090
#YPOSITION mm: 0.0860
#ZPOSITION mm: 4.9970
##OXINSTPT   : 4
##OXINSTSTROB: 48.41
##OXINSTELEMS: 29,6,8,35
##OXINSTLABEL: 29, 8.048, Cu
##OXINSTLABEL: 29, 8.905, Cu
##OXINSTLABEL: 29, 0.930, Cu
##OXINSTLABEL: 29, 0.832, Cu
##OXINSTLABEL: 29, 0.811, Cu
##OXINSTLABEL: 6, 0.277, C
##OXINSTLABEL: 8, 0.525, O
##OXINSTLABEL: 35, 11.924, Br
##OXINSTLABEL: 35, 13.292, Br
##OXINSTLABEL: 35, 1.480, Br
##OXINSTLABEL: 35, 1.340, Br
##OXINSTLABEL: 35, 1.294, Br
#SPECTRUM    : Spectral Data Starts Here
-0.20000, 0.0
-0.13000, 0.0
-0.06000, 4.0
0.01000, 1917.0
0.08000, 663.0
0.15000, 252.0
0.22000, 321.0
0.29000, 781.0
0.36000, 323.0
0.43000, 444.0
0.50000, 907.0
0.57000, 825.0
0.64000, 1058.0
0.71000, 1498.0
0.78000, 5356.0
0.85000, 7791.0
0.92000, 74431.0
0.99000, 12758.0
1.06000, 557.0
1.13000, 393.0
1.20000, 397.0
1.27000, 490.0
1.34000, 514.0
1.41000, 564.0
1.48000, 946.0
1.55000, 708.0
1.62000, 630.0
1.69000, 717.0
1.76000, 762.0
1.83000, 868.0
1.90000, 843.0
1.97000, 745.0
2.04000, 763.0
2.11000, 784.0
2.18000, 823.0
2.25000, 846.0
2.32000, 859.0
2.39000, 831.0
2.46000, 841.0
2.53000, 880.0
2.60000, 878.0
2.67000, 864.0
2.74000, 838.0
2.81000, 882.0
2.88000, 830.0
2.95000, 867.0
3.02000, 895.0
3.09000, 852.0
3.16000, 826.0
3.23000, 834.0
3.30000, 828.0
3.37000, 826.0
3.44000, 775.0
3.51000, 818.0
3.58000, 781.0
3.65000, 783.0
3.72000, 760.0
3.79000, 790.0
3.86000, 746.0
3.93000, 758.0
4.00000, 731.0
4.07000, 706.0
4.14000, 717.0
4.21000, 663.0
4.28000, 670.0
4.35000, 654.0
4.42000, 661.0
4.49000, 665.0
4.56000, 640.0
4.63000, 607.0
4.70000, 636.0
4.77000, 623.0
4.84000, 578.0
4.91000, 582.0
4.98000, 569.0
5.05000, 566.0
5.12000, 543.0
5.19000, 548.0
5.26000, 534.0
5.33000, 563.0
5.40000, 546.0
5.47000, 505.0
5.54000, 538.0
5.61000, 510.0
5.68000, 495.0
5.75000, 501.0
5.82000, 495.0
5.89000, 440.0
5.96000, 483.0
6.03000, 475.0
6.10000, 451.0
6.17000, 438.0
6.24000, 482.0
6.31000, 476.0
6.38000, 438.0
6.45000, 424.0
6.52000, 414.0
6.59000, 418.0
6.66000, 407.0
6.73000, 396.0
6.80000, 398.0
6.87000, 366.0
6.94000, 398.0
7.01000, 370.0
7.08000, 387.0
7.15000, 379.0
7.22000, 396.0
7.29000, 360.0
7.36000, 380.0
7.43000, 344.0
7.50000, 338.0
7.57000, 351.0
7.64000, 369.0
7.71000, 378.0
7.78000, 371.0
7.85000, 633.0
7.92000, 3740.0
7.99000, 14960.0
8.06000, 19181.0
8.13000, 7429.0
8.20000, 1051.0
8.27000, 350.0
8.34000, 275.0
8.41000, 310.0
8.48000, 278.0
8.55000, 307.0
8.62000, 300.0
8.69000, 337.0
8.76000, 591.0
8.83000, 1859.0
8.90000, 2956.0
8.97000, 1922.0
9.04000, 664.0
9.11000, 259.0
9.18000, 197.0
9.25000, 202.0
9.32000, 192.0
9.39000, 209.0
9.46000, 206.0
9.53000, 179.0
9.60000, 191.0
9.67000, 182.0
9.74000, 199.0
9.81000, 199.0
9.88000, 216.0
9.95000, 221.0
10.02000, 181.0
10.09000, 196.0
10.16000, 187.0
10.23000, 177.0
10.30000, 169.0
10.37000, 190.0
10.44000, 199.0
10.51000, 181.0
10.58000, 167.0
10.65000, 167.0
10.72000, 174.0
10.79000, 176.0
10.86000, 182.0
10.93000, 162.0
11.00000, 155.0
11.07000, 150.0
11.14000, 156.0
11.21000, 144.0
11.28000, 149.0
11.35000, 170.0
11.42000, 136.0
11.49000, 136.0
11.56000, 147.0
11.63000, 140.0
11.70000, 119.0
11.77000, 133.0
11.84000, 132.0
11.91000, 121.0
11.98000, 128.0
12.05000, 141.0
12.12000, 135.0
12.19000, 112.0
12.26000, 120.0
12.33000, 102.0
12.40000, 104.0
12.47000, 125.0
12.54000, 106.0
12.61000, 102.0
12.68000, 105.0
12.75000, 91.0
12.82000, 99.0
12.89000, 90.0
12.96000, 108.0
13.03000, 96.0
13.10000, 100.0
13.17000, 101.0
13.24000, 84.0
13.31000, 99.0
13.38000, 83.0
13.45000, 90.0
13.52000, 85.0
13.59000, 80.0
13.66000, 89.0
13.73000, 84.0
13.80000, 77.0
13.87000, 77.0
13.94000, 77.0
14.01000, 73.0
14.08000, 72.0
14.15000, 75.0
14.22000, 73.0
14.29000, 61.0
14.36000, 71.0
14.43000, 61.0
14.50000, 73.0
14.57000, 57.0
14.64000, 66.0
14.71000, 58.0
14.78000, 64.0
14.85000, 51.0
14.92000, 60.0
14.99000, 57.0
15.06000, 53.0
15.13000, 44.0
15.20000, 45.0
15.27000, 42.0
15.34000, 43.0
15.41000, 45.0
15.48000, 36.0
15.55000, 43.0
15.62000, 49.0
15.69000, 32.0
15.76000, 36.0
15.83000, 31.0
15.90000, 43.0
15.97000, 54.0
16.04000, 63.0
16.11000, 69.0
16.18000, 62.0
16.25000, 58.0
16.32000, 38.0
16.39000, 34.0
16.46000, 30.0
16.53000, 27.0
16.60000, 35.0
16.67000, 29.0
16.74000, 29.0
16.81000, 36.0
16.88000, 49.0
16.95000, 33.0
17.02000, 24.0
17.09000, 24.0
17.16000, 30.0
17.23000, 25.0
17.30000, 21.0
17.37000, 23.0
17.44000, 21.0
17.51000, 19.0
17.58000, 23.0
17.65000, 20.0
17.72000, 15.0
17.79000, 12.0
17.86000, 17.0
17.93000, 13.0
18.00000, 16.0
18.07000, 8.0
18.14000, 16.0
18.21000, 12.0
18.28000, 8.0
18.35000, 10.0
18.42000, 9.0
18.49000, 15.0
18.56000, 9.0
18.63000, 12.0
18.70000, 6.0
18.77000, 7.0
18.84000, 8.0
18.91000, 7.0
18.98000, 7.0
19.05000, 4.0
19.12000, 5.0
19.19000, 6.0
19.26000, 6.0
19.33000, 7.0
19.40000, 4.0
19.47000, 6.0
19.54000, 4.0
19.61000, 4.0
19.68000, 4.0
19.75000, 5.0
19.82000, 1.0
19.89000, 2.0
19.96000, 2.0
20.03000, 1.0
20.10000, 0.0
20.17000, 1.0
20.24000, 1.0
20.27500, 2.0
#ENDOFDATA   :

File: Si-std-7kV.msa
#FORMAT      : EMSA/MAS Spectral Data File
#VERSION     : 1.0
#TITLE       : Si-7kV-std
#DATE        : 01-Jun-2017
#TIME        : 07:00
#OWNER       : John Minter
#NPOINTS     : 2048
#NCOLUMNS    : 1
#XUNITS      : eV
#YUNITS      : counts
#DATATYPE    : Y
#XPERCHAN    : 5.00333
#OFFSET      : -103.613
#BEAMKV      : 7
#PROBECUR    : 2.288
#SIGNALTYPE  : EDS
#ELEVANGLE   : 35
#AZIMANGLE   : 225
#LIVETIME    : 600
#REALTIME    : 661.87
#TAUWIND     : 0
#TDEADLYR    : 0
#TACTLYR     : 0.045
#TALWIND     : 0.003
#CHOFFSET    : 0.0
#XLABEL      : Energy (eV)
#YLABEL      : Counts
#EDSDET      : SDUTW
##SPECIMEN   : Si-7kV-std
##D2STDCMP   : Si,(Si:100.0),2.1
##DET_HASH   : beb453cd-0419-e61a-0579-19c0f29e56e8
##CALIB_HASH : 437bace4-1a7e-9a72-d2b5-cbfa7f4a1c79
##SAMPLE     : <BulkSample id="1">\n<mOrientation id="2">\n<double>0.0</double>\n<double>0.0</double>\n<double>-1.0</double>\n</mOrientation>\n</BulkSample>
#SPECTRUM    :
0,
9,
1293,
9084,
14208,
11450,
12827,
2141,
811,
855.304,
932.112,
1008.92,
1188,
1555,
2064,
2619,
2929,
3149.07,
3369.14,
3589.2,
3749,
4163,
4367,
4578,
4748,
4809,
5018,
4935,
4861,
4895,
4760,
4704,
4520,
4422,
4286,
4231,
4272,
4098,
4040,
3954,
3925,
3902,
3796,
3785,
3917,
4001,
4170,
4283,
4305,
4383,
11656,
78121,
250696,
292235,
127849,
32821,
13988,
5744,
2384,
1749,
1641,
1553,
1545,
1544,
1573,
1506,
1494,
1486,
1508,
1485,
1442,
1382,
1388,
1381,
1349,
1325,
1313,
1307,
1236,
1271,
1255,
1214,
1211,
1125,
1150,
1109,
1128,
1150,
1041,
1030,
1046,
1011,
967,
980,
932,
957,
891,
903,
899,
889.904,
872.018,
854.131,
836.245,
818.358,
800.472,
782.586,
764.699,
746.813,
728.926,
720,
703,
691,
665,
642,
625,
646,
621,
591,
584,
610,
587,
589,
550,
517,
569,
552,
480,
511,
491,
457,
451,
450,
455,
415,
415,
423,
412,
386,
398,
391,
391,
384,
363,
344,
342,
334,
306,
315,
325,
270,
302,
299,
263,
295,
284,
263,
252,
233,
256,
230,
226,
223,
211,
211,
188,
170,
193,
185,
180,
161,
178,
165,
157,
129,
147,
157,
132,
139,
124,
120,
111,
125,
111,
104,
91,
89,
74,
79,
82,
78,
69,
58,
69,
52,
44,
42,
47,
36,
41,
47,
25,
31,
18,
9,
6,
8,
3,
4,
3,
1,
2,
2,
2,
4,
2,
2,
3,
3,
4,
1,
3,
1,
1,
2,
0,
1,
1,
2,
3,
1,
2,
0,
1,
0,
1,
2,
0,
1,
0,
2,
1,
1,
0,
0,
1,
0,
1,
0,
0,
1,
1,
0,
0,
0,
1,
0,
0,
1,
0,
0,
0,
0,
0,
0,
0,
0,
1,
0,
0,
1,
0,
0,
0,
0,
0,
0,
0,
0,
0,
1,
0,
0,
0,
0,
0,
0,
1,
0,
0,
0,
0,
0,
0,
0,
#ENDOFDATA   :